Folder: nano-crucible/examples/data

Note: examples/data/measurement_notes.txt
Thermal Conductivity Measurement Notes
========================================

Sample: Silicon Wafer A
Measurement Date: 2024-02-24
Operator: J. Doe

Equipment:
- 3-omega sensor configuration
- Temperature controller: Lakeshore 336
- Lock-in amplifier: SR830

Measurement Conditions:
- Ambient pressure: 1 atm
- Sample mounting: thermal paste (Arctic Silver 5)
- Heating current: 10 mA
- Frequency: 1 kHz

Temperature Range: 273-363 K
Number of points: 10
Dwell time: 300 seconds per point

Notes:
- Sample cleaned with acetone and IPA before mounting
- Thermal equilibration verified before each measurement
- Slight drift observed above 350 K, data recollected
- All measurements within expected uncertainty range

Data Processing:
- Background subtraction applied
- Curve fitting: polynomial order 2
- Uncertainty propagated from voltage and current measurements

Note: examples/README.md
# Crucible Examples

This directory contains example notebooks and data files demonstrating how to use the Crucible Python client.

## Files

### Notebooks

- **`crucible_tutorial.ipynb`** - Comprehensive tutorial covering core dataset and sample operations
- **`crucible_project_management.ipynb`** - Tutorial for project and user management (requires admin permissions)

### Data Files (`data/` directory)

- **`thermal_conductivity_data.csv`** - Example thermal conductivity measurements (10 temperature points from 273-363 K)
- **`measurement_notes.txt`** - Example measurement notes and experimental conditions
- **`xrd_pattern.csv`** - Example X-ray diffraction pattern data
- **`thermal_measurement_preview.png`** - Example thumbnail image for datasets

## Tutorial Notebooks

### Main Tutorial (`crucible_tutorial.ipynb`)

The main tutorial demonstrates all core dataset and sample operations:

1. **Setup and Configuration** - Initializing the Crucible client
2. **Creating Samples** - Creating sample records in Crucible
3. **Creating Datasets** - Creating datasets with and without files
4. **Listing Datasets** - Retrieving datasets from a project
5. **Getting Dataset Details** - Retrieving dataset metadata
6. **Updating Dataset Metadata** - Modifying scientific metadata
7. **Downloading Dataset Files** - Retrieving files from datasets
8. **Linking Sample to Dataset** - Associating samples with datasets
9. **Linking Datasets** - Creating parent-child relationships between datasets
10. **Linking Samples** - Creating parent-child relationships between samples
11. **Adding Thumbnails** - Uploading preview images for datasets

### Project Management Tutorial (`crucible_project_management.ipynb`)

The project management tutorial covers administrative operations (**requires admin API key**):

1. **Setup and Configuration** - Initializing with admin credentials
2. **Creating Projects** - Creating or getting projects
3. **Getting Project Details** - Retrieving project information
4. **Listing Projects** - Viewing all accessible projects
5. **Creating Users** - Adding new users to Crucible
6. **Getting User Details** - Retrieving user information by ORCID or email
7. **Adding Users to Projects** - Granting project access to users
8. **Getting Project Users** - Listing team members for a project

## Running the Tutorials

### Prerequisites

1. Install nano-crucible:
   ```bash
   pip install -e /path/to/nano-crucible
   ```

2. Configure your API credentials:
   ```bash
   crucible config init
   ```

   You'll need:
   - **For main tutorial**: Regular API key from https://crucible.lbl.gov/api/v1/user_apikey
   - **For project management tutorial**: Admin API key
   - Access to project `crucible-demo` (or update the PROJECT_ID variable)

   **Alternative (without terminal access)**: If you don't have terminal access, you can initialize the client directly in your notebook:
   ```python
   from crucible import CrucibleClient
   client = CrucibleClient(
       api

File: xrd_pattern.csv
two_theta_degrees,intensity_counts,background_counts
10.0,125,120
15.0,132,118
20.0,145,115
25.0,178,122
28.5,8542,125
30.0,1245,128
35.0,245,120
40.0,312,125
45.0,198,118
47.3,5234,122
50.0,432,115
55.0,287,120
56.1,3891,118
60.0,356,125
65.0,298,122
69.2,2145,120
70.0,423,118
75.0,312,115
80.0,245,122